"","STUDYID","DOMAIN","USUBJID","SUBJID","RFSTDTC","RFENDTC","RFXSTDTC","RFXENDTC","RFICDTC","RFPENDTC","DTHDTC","DTHFL","SITEID","BRTHDTC","AGE","AGEU","SEX","RACE","ETHNIC","ARMCD","ARM","ACTARMCD","ACTARM","COUNTRY"
"1","ABC","DM","ABC-01-049","049","2006-11-07","","","","2006-10-25","","","","01","1966-11-12",39,"YEARS","M","WHITE","NOT HISPANIC OR LATINO","4","ARM D","","",""
"2","ABC","DM","ABC-01-050","050","2006-11-02","","","","2006-10-25","","","","01","1958-12-19",47,"YEARS","M","WHITE","NOT HISPANIC OR LATINO","2","ARM B","","",""
"3","ABC","DM","ABC-01-051","051","2006-11-02","","","","2006-10-25","","","","01","1972-05-02",34,"YEARS","M","WHITE","NOT HISPANIC OR LATINO","1","ARM A","","",""
"4","ABC","DM","ABC-01-052","052","2006-11-06","","","","2006-10-31","","","","01","1961-06-27",45,"YEARS","F","WHITE","UNKNOWN","3","ARM C","","",""
"5","ABC","DM","ABC-01-053","053","2006-11-08","","","","2006-11-01","","","","01","1980-04-07",26,"YEARS","F","WHITE","NOT HISPANIC OR LATINO","2","ARM B","","",""
"6","ABC","DM","ABC-01-054","054","2006-11-16","","","","2006-11-07","","","","01","1962-09-13",44,"YEARS","M","WHITE","NOT HISPANIC OR LATINO","4","ARM D","","",""
"7","ABC","DM","ABC-01-055","055","2006-12-06","","","","2006-10-31","","","","01","1959-06-11",47,"YEARS","F","BLACK OR AFRICAN AMERICAN","UNKNOWN","3","ARM C","","",""
"8","ABC","DM","ABC-01-056","056","2006-11-28","","","","2006-11-21","","","","01","1975-05-02",31,"YEARS","M","WHITE","NOT HISPANIC OR LATINO","1","ARM A","","",""
"9","ABC","DM","ABC-01-113","113","2006-12-05","","","","2006-11-28","","","","01","1932-02-08",74,"YEARS","M","WHITE","UNKNOWN","4","ARM D","","",""
"10","ABC","DM","ABC-01-114","114","2006-12-14","","","","2006-12-01","","","","01","1934-07-09",72,"YEARS","F","WHITE","UNKNOWN","2","ARM B","","",""
"11","ABC","DM","ABC-02-033","033","2006-10-25","","","","2006-10-16","","","","02","1968-02-01",38,"YEARS","F","WHITE","NOT HISPANIC OR LATINO","3","ARM C","","",""
"12","ABC","DM","ABC-02-034","034","2006-10-26","","","","2006-10-16","","","","02","1933-10-05",73,"YEARS","F","WHITE","NOT HISPANIC OR LATINO","1","ARM A","","",""
"13","ABC","DM","ABC-02-035","035","2006-10-31","","","","2006-10-16","","","","02","1960-09-25",46,"YEARS","M","WHITE","NOT HISPANIC OR LATINO","2","ARM B","","",""
"14","ABC","DM","ABC-02-036","036","2006-11-01","","","","2006-10-23","","","","02","1971-01-01",35,"YEARS","M","WHITE","NOT HISPANIC OR LATINO","4","ARM D","","",""
"15","ABC","DM","ABC-02-037","037","2006-11-01","","","","2006-10-24","","","","02","1960-07-28",46,"YEARS","M","WHITE","HISPANIC OR LATINO","3","ARM C","","",""
"16","ABC","DM","ABC-02-038","038","2006-11-13","","","","2006-10-30","","","","02","1947-07-02",59,"YEARS","M","WHITE","NOT HISPANIC OR LATINO","1","ARM A","","",""
"17","ABC","DM","ABC-02-039","039","2006-11-15","","","","2006-11-06","","","","02","1971-04-11",35,"YEARS","M","WHITE","NOT HISPANIC OR LATINO","2","ARM B","","",""
"18","ABC","DM","ABC-02-040","040","2006-12-07","","","","2006-11-29","","","","02","1944-03-27",62,"YEARS","M","WHITE","NOT HISPANIC OR LATINO","4","ARM D","","",""
"19","ABC","DM","ABC-02-109","109","2006-12-07","","","","2006-11-28","","","","02","1969-09-03",37,"YEARS","M","WHITE","NOT HISPANIC OR LATINO","1","ARM A","","",""
"20","ABC","DM","ABC-02-110","110","2006-12-18","","","","2006-12-11","","","","02","1966-08-12",40,"YEARS","F","WHITE","NOT HISPANIC OR LATINO","2","ARM B","","",""
"21","ABC","DM","ABC-02-111","111","2006-12-19","","","","2006-12-11","","","","02","1967-07-09",39,"YEARS","M","WHITE","NOT HISPANIC OR LATINO","4","ARM D","","",""
"22","ABC","DM","ABC-02-112","112","2006-12-19","","","","2006-12-12","","","","02","1976-11-01",30,"YEARS","F","WHITE","NOT HISPANIC OR LATINO","3","ARM C","","",""
"23","ABC","DM","ABC-03-001","001","2006-10-10","","","","2006-09-26","","","","03","1941-06-16",65,"YEARS","M","WHITE","NOT HISPANIC OR LATINO","2","ARM B","","",""
"24","ABC","DM","ABC-03-002","002","2006-10-11","","","","2006-09-27","","","","03","1935-03-20",71,"YEARS","M","WHITE","NOT HISPANIC OR LATINO","1","ARM A","","",""
"25","ABC","DM","ABC-03-003","003","2006-10-11","","","","2006-09-27","","","","03","1942-09-14",64,"YEARS","M","WHITE","NOT HISPANIC OR LATINO","4","ARM D","","",""
"26","ABC","DM","ABC-03-004","004","2006-10-12","","","","2006-09-27","","","","03","1961-07-08",45,"YEARS","M","WHITE","NOT HISPANIC OR LATINO","3","ARM C","","",""
"27","ABC","DM","ABC-03-005","005","2006-10-12","","","","2006-09-27","","","","03","1952-12-10",53,"YEARS","M","WHITE","NOT HISPANIC OR LATINO","3","ARM C","","",""
"28","ABC","DM","ABC-03-006","006","2006-10-25","","","","2006-10-18","","","","03","1958-12-12",47,"YEARS","M","WHITE","NOT HISPANIC OR LATINO","1","ARM A","","",""
"29","ABC","DM","ABC-03-007","007","2006-10-31","","","","2006-10-27","","","","03","1948-12-01",57,"YEARS","M","WHITE","NOT HISPANIC OR LATINO","2","ARM B","","",""
"30","ABC","DM","ABC-03-008","008","2006-11-02","2006-11-09","","","2006-10-18","2006-11-09","","","03","1952-08-28",54,"YEARS","M","WHITE","NOT HISPANIC OR LATINO","4","ARM D","","",""
"31","ABC","DM","ABC-03-089","089","2006-11-21","","","","2006-11-15","","","","03","1975-10-02",31,"YEARS","F","UNKNOWN","HISPANIC OR LATINO","4","ARM D","","",""
"32","ABC","DM","ABC-03-090","090","2006-12-06","","","","2006-11-30","","","","03","1926-06-17",80,"YEARS","M","WHITE","NOT HISPANIC OR LATINO","SCRNFAIL","SCREEN FAILURE","","",""
"33","ABC","DM","ABC-03-091","091","2006-12-20","","","","2006-12-11","","","","03","1955-02-20",51,"YEARS","F","WHITE","NOT HISPANIC OR LATINO","1","ARM A","","",""
"34","ABC","DM","ABC-04-073","073","2006-10-31","","","","2006-10-10","","","","04","1947-01-19",59,"YEARS","F","WHITE","NOT HISPANIC OR LATINO","4","ARM D","","",""
"35","ABC","DM","ABC-04-074","074","2006-11-01","2006-11-20","","","2006-10-16","2006-11-20","","","04","1983-03-28",23,"YEARS","F","WHITE","NOT HISPANIC OR LATINO","3","ARM C","","",""
"36","ABC","DM","ABC-04-075","075","2006-11-09","","","","2006-11-02","","","","04","1943-04-07",63,"YEARS","M","WHITE","NOT HISPANIC OR LATINO","1","ARM A","","",""
"37","ABC","DM","ABC-04-076","076","2006-11-15","","","","2006-10-26","","","","04","1954-12-09",51,"YEARS","M","WHITE","NOT HISPANIC OR LATINO","2","ARM B","","",""
"38","ABC","DM","ABC-04-077","077","2006-11-15","","","","2006-11-02","","","","04","1954-02-20",52,"YEARS","F","WHITE","NOT HISPANIC OR LATINO","3","ARM C","","",""
"39","ABC","DM","ABC-04-078","078","2006-12-13","","","","2006-11-21","","","","04","1953-09-11",53,"YEARS","F","WHITE","NOT HISPANIC OR LATINO","4","ARM D","","",""
"40","ABC","DM","ABC-04-079","079","2006-12-18","","","","2006-12-11","","","","04","1933-11-11",73,"YEARS","F","WHITE","NOT HISPANIC OR LATINO","2","ARM B","","",""
"41","ABC","DM","ABC-04-080","080","2006-12-21","","","","2006-12-12","","","","04","1951-05-07",55,"YEARS","M","WHITE","NOT HISPANIC OR LATINO","1","ARM A","","",""
"42","ABC","DM","ABC-04-125","125","2006-12-29","","","","2006-12-14","","","","04","1937-11-16",69,"YEARS","M","WHITE","NOT HISPANIC OR LATINO","4","ARM D","","",""
"43","ABC","DM","ABC-04-126","126","2007-01-02","","","","2006-12-13","","","","04","1957-05-13",49,"YEARS","M","WHITE","NOT HISPANIC OR LATINO","1","ARM A","","",""
"44","ABC","DM","ABC-04-127","127","2007-01-03","","","","2006-12-14","","","","04","1937-03-18",69,"YEARS","M","ASIAN","NOT HISPANIC OR LATINO","2","ARM B","","",""
"45","ABC","DM","ABC-04-128","128","2007-01-04","","","","2006-12-21","","","","04","1987-05-24",19,"YEARS","M","WHITE","NOT HISPANIC OR LATINO","3","ARM C","","",""
"46","ABC","DM","ABC-04-129","129","2007-01-05","","","","2006-12-19","","","","04","1960-02-21",46,"YEARS","M","ASIAN","NOT HISPANIC OR LATINO","4","ARM D","","",""
"47","ABC","DM","ABC-04-130","130","2007-01-08","","","","2006-12-18","","","","04","1937-02-28",69,"YEARS","M","WHITE","NOT HISPANIC OR LATINO","3","ARM C","","",""
"48","ABC","DM","ABC-04-131","131","2007-01-10","","","","2006-12-18","","","","04","1935-03-10",71,"YEARS","M","WHITE","NOT HISPANIC OR LATINO","2","ARM B","","",""
"49","ABC","DM","ABC-06-065","065","2006-11-08","","","","2006-10-27","","","","06","1972-04-04",34,"YEARS","M","WHITE","NOT HISPANIC OR LATINO","3","ARM C","","",""
"50","ABC","DM","ABC-06-066","066","2006-11-14","","","","2006-11-06","","","","06","1945-01-01",61,"YEARS","F","WHITE","NOT HISPANIC OR LATINO","2","ARM B","","",""
"51","ABC","DM","ABC-06-067","067","2006-11-21","","","","2006-11-14","","","","06","1958-09-23",48,"YEARS","F","WHITE","HISPANIC OR LATINO","4","ARM D","","",""
"52","ABC","DM","ABC-06-068","068","2006-11-22","","","","2006-11-16","","","","06","1954-09-12",52,"YEARS","F","WHITE","NOT HISPANIC OR LATINO","1","ARM A","","",""
"53","ABC","DM","ABC-06-069","069","2006-11-27","2007-01-05","","","2006-11-06","2007-01-05","","","06","1934-11-15",72,"YEARS","F","WHITE","NOT HISPANIC OR LATINO","1","ARM A","","",""
"54","ABC","DM","ABC-06-070","070","2006-11-29","","","","2006-11-17","","","","06","1980-02-01",26,"YEARS","M","WHITE","NOT HISPANIC OR LATINO","2","ARM B","","",""
"55","ABC","DM","ABC-06-071","071","2006-11-29","","","","2006-11-15","","","","06","1931-03-01",75,"YEARS","F","WHITE","NOT HISPANIC OR LATINO","4","ARM D","","",""
"56","ABC","DM","ABC-06-072","072","2006-12-05","","","","2006-11-28","","","","06","1960-07-12",46,"YEARS","M","WHITE","NOT HISPANIC OR LATINO","3","ARM C","","",""
"57","ABC","DM","ABC-06-161","161","2006-12-12","2007-01-04","","","2006-12-08","2007-01-04","","","06","1958-02-03",48,"YEARS","M","WHITE","NOT HISPANIC OR LATINO","3","ARM C","","",""
"58","ABC","DM","ABC-06-162","162","2006-12-28","","","","2006-12-14","","","","06","1948-12-21",58,"YEARS","M","WHITE","NOT HISPANIC OR LATINO","SCRNFAIL","SCREEN FAILURE","","",""
"59","ABC","DM","ABC-06-163","163","2007-01-08","","","","2006-12-21","","","","06","1942-04-13",64,"YEARS","M","WHITE","NOT HISPANIC OR LATINO","4","ARM D","","",""
"60","ABC","DM","ABC-07-009","009","2006-10-18","","","","2006-10-11","","","","07","1945-04-18",61,"YEARS","F","WHITE","NOT HISPANIC OR LATINO","3","ARM C","","",""
"61","ABC","DM","ABC-07-010","010","2006-11-22","","","","2006-11-15","","","","07","1960-07-12",46,"YEARS","F","WHITE","NOT HISPANIC OR LATINO","2","ARM B","","",""
"62","ABC","DM","ABC-07-011","011","2006-11-22","","","","2006-11-15","","","","07","1985-01-18",21,"YEARS","M","WHITE","NOT HISPANIC OR LATINO","4","ARM D","","",""
"63","ABC","DM","ABC-07-012","012","2006-12-13","","","","2006-12-06","","","","07","1948-08-12",58,"YEARS","F","WHITE","NOT HISPANIC OR LATINO","1","ARM A","","",""
"64","ABC","DM","ABC-07-013","013","2006-12-18","","","","2006-12-11","","","","07","1961-01-29",45,"YEARS","M","WHITE","NOT HISPANIC OR LATINO","4","ARM D","","",""
"65","ABC","DM","ABC-07-014","014","2006-12-18","","","","2006-12-11","","","","07","1935-04-19",71,"YEARS","M","WHITE","NOT HISPANIC OR LATINO","3","ARM C","","",""
"66","ABC","DM","ABC-07-015","015","2006-12-20","","","","2006-12-13","","","","07","1971-04-17",35,"YEARS","F","WHITE","NOT HISPANIC OR LATINO","2","ARM B","","",""
"67","ABC","DM","ABC-07-016","016","2006-12-26","","","","2006-12-18","","","","07","1957-08-06",49,"YEARS","M","WHITE","NOT HISPANIC OR LATINO","1","ARM A","","",""
"68","ABC","DM","ABC-08-101","101","2006-11-07","","","","2006-10-23","","","","08","1952-03-16",54,"YEARS","F","WHITE","NOT HISPANIC OR LATINO","3","ARM C","","",""
"69","ABC","DM","ABC-08-102","102","2006-11-09","","","","2006-11-01","","","","08","1952-02-23",54,"YEARS","F","WHITE","NOT HISPANIC OR LATINO","4","ARM D","","",""
"70","ABC","DM","ABC-08-103","103","2006-11-09","","","","2006-11-02","","","","08","1973-09-17",33,"YEARS","M","UNKNOWN","NOT HISPANIC OR LATINO","2","ARM B","","",""
"71","ABC","DM","ABC-08-104","104","2006-11-09","","","","2006-11-09","","","","08","1958-07-01",48,"YEARS","M","WHITE","NOT HISPANIC OR LATINO","1","ARM A","","",""
"72","ABC","DM","ABC-08-105","105","2006-11-13","","","","2006-10-30","","","","08","1962-05-11",44,"YEARS","M","WHITE","NOT HISPANIC OR LATINO","3","ARM C","","",""
"73","ABC","DM","ABC-08-106","106","2006-11-14","","","","2006-10-30","","","","08","1946-06-17",60,"YEARS","M","WHITE","NOT HISPANIC OR LATINO","1","ARM A","","",""
"74","ABC","DM","ABC-08-107","107","2006-11-21","2007-01-03","","","2006-11-03","2007-01-03","","","08","1952-11-03",54,"YEARS","M","WHITE","NOT HISPANIC OR LATINO","4","ARM D","","",""
"75","ABC","DM","ABC-08-108","108","2006-12-22","","","","2006-12-04","","","","08","1960-03-24",46,"YEARS","F","WHITE","NOT HISPANIC OR LATINO","2","ARM B","","",""
"76","ABC","DM","ABC-09-017","017","2006-10-18","","","","2006-10-06","","","","09","1945-09-28",61,"YEARS","M","BLACK OR AFRICAN AMERICAN","HISPANIC OR LATINO","3","ARM C","","",""
"77","ABC","DM","ABC-09-018","018","2006-10-18","","","","2006-10-04","","","","09","1984-08-29",22,"YEARS","F","WHITE","NOT HISPANIC OR LATINO","2","ARM B","","",""
"78","ABC","DM","ABC-09-019","019","2006-10-18","","","","2006-10-06","","","","09","1960-12-06",45,"YEARS","M","WHITE","NOT HISPANIC OR LATINO","4","ARM D","","",""
"79","ABC","DM","ABC-09-020","020","2006-10-18","","","","2006-10-04","","","","09","1953-09-22",53,"YEARS","M","WHITE","NOT HISPANIC OR LATINO","1","ARM A","","",""
"80","ABC","DM","ABC-09-021","021","2006-11-01","","","","2006-10-05","","","","09","1973-11-08",32,"YEARS","F","BLACK OR AFRICAN AMERICAN","HISPANIC OR LATINO","2","ARM B","","",""
"81","ABC","DM","ABC-09-022","022","2006-11-16","","","","2006-11-13","","","","09","1968-11-08",38,"YEARS","F","BLACK OR AFRICAN AMERICAN","NOT HISPANIC OR LATINO","4","ARM D","","",""
"82","ABC","DM","ABC-09-023","023","2006-11-16","","","","2006-11-14","","","","09","1965-04-03",41,"YEARS","M","BLACK OR AFRICAN AMERICAN","NOT HISPANIC OR LATINO","1","ARM A","","",""
"83","ABC","DM","ABC-09-024","024","2006-11-16","","","","2006-11-09","","","","09","1953-05-03",53,"YEARS","M","BLACK OR AFRICAN AMERICAN","NOT HISPANIC OR LATINO","3","ARM C","","",""
"84","ABC","DM","ABC-09-137","137","2006-11-21","","","","2006-11-17","","","","09","1946-10-26",60,"YEARS","M","WHITE","NOT HISPANIC OR LATINO","1","ARM A","","",""
"85","ABC","DM","ABC-09-138","138","2006-11-21","","","","2006-11-15","","","","09","1975-08-24",31,"YEARS","M","WHITE","NOT HISPANIC OR LATINO","4","ARM D","","",""
"86","ABC","DM","ABC-09-139","139","2006-11-21","","","","2006-11-17","","","","09","1985-11-13",21,"YEARS","F","WHITE","NOT HISPANIC OR LATINO","3","ARM C","","",""
"87","ABC","DM","ABC-09-140","140","2006-11-28","","","","2006-11-22","","","","09","1964-01-05",42,"YEARS","F","WHITE","NOT HISPANIC OR LATINO","2","ARM B","","",""
"88","ABC","DM","ABC-10-041","041","2006-12-20","","","","2006-12-20","","","","10","1962-02-24",44,"YEARS","F","WHITE","HISPANIC OR LATINO","2","ARM B","","",""
"89","ABC","DM","ABC-10-042","042","2007-01-10","","","","2006-12-18","","","","10","1982-01-04",25,"YEARS","F","WHITE","NOT HISPANIC OR LATINO","3","ARM C","","",""
"90","ABC","DM","ABC-10-043","043","2007-02-09","","","","2006-12-18","","","","10","1982-09-28",24,"YEARS","F","WHITE","NOT HISPANIC OR LATINO","1","ARM A","","",""
"91","ABC","DM","ABC-10-145","145","2006-12-08","","","","2006-12-01","","","","10","1975-10-15",31,"YEARS","M","UNKNOWN","HISPANIC OR LATINO","1","ARM A","","",""
"92","ABC","DM","ABC-10-146","146","2006-12-11","","","","2006-11-29","","","","10","1977-10-19",29,"YEARS","M","WHITE","NOT HISPANIC OR LATINO","4","ARM D","","",""
"93","ABC","DM","ABC-10-147","147","2006-12-12","","","","2006-12-01","","","","10","1954-07-02",52,"YEARS","M","BLACK OR AFRICAN AMERICAN","NOT HISPANIC OR LATINO","3","ARM C","","",""
"94","ABC","DM","ABC-10-148","148","2006-12-12","","","","2006-11-30","","","","10","1963-10-01",43,"YEARS","M","WHITE","NOT HISPANIC OR LATINO","2","ARM B","","",""
"95","ABC","DM","ABC-10-149","149","2006-12-13","","","","2006-11-30","","","","10","1949-07-17",57,"YEARS","M","BLACK OR AFRICAN AMERICAN","NOT HISPANIC OR LATINO","1","ARM A","","",""
"96","ABC","DM","ABC-10-150","150","2006-12-14","","","","2006-11-29","","","","10","1981-09-07",25,"YEARS","M","WHITE","NOT HISPANIC OR LATINO","4","ARM D","","",""
"97","ABC","DM","ABC-10-151","151","2006-12-28","","","","2006-12-08","","","","10","1940-06-21",66,"YEARS","M","WHITE","HISPANIC OR LATINO","2","ARM B","","",""
"98","ABC","DM","ABC-10-152","152","2007-01-08","","","","2006-12-15","","","","10","1943-11-03",63,"YEARS","M","WHITE","NOT HISPANIC OR LATINO","3","ARM C","","",""
"99","ABC","DM","ABC-11-048","048","2007-01-18","","","","2006-12-28","","","","11","1968-11-12",38,"YEARS","F","ASIAN","UNKNOWN","2","ARM B","","",""
"100","ABC","DM","ABC-11-093","093","2006-11-08","","","","2006-11-02","","","","11","1954-10-21",52,"YEARS","M","WHITE","NOT HISPANIC OR LATINO","2","ARM B","","",""
"101","ABC","DM","ABC-11-094","094","2006-11-08","","","","2006-11-06","","","","11","1966-10-03",40,"YEARS","M","WHITE","NOT HISPANIC OR LATINO","1","ARM A","","",""
"102","ABC","DM","ABC-11-095","095","2006-11-10","","","","2006-11-07","","","","11","1944-08-02",62,"YEARS","M","WHITE","HISPANIC OR LATINO","3","ARM C","","",""
"103","ABC","DM","ABC-11-096","096","2006-11-27","","","","2006-11-15","","","","11","1953-01-13",53,"YEARS","M","WHITE","NOT HISPANIC OR LATINO","4","ARM D","","",""
"104","ABC","DM","ABC-11-097","097","2006-11-28","","","","2006-11-08","","","","11","1982-06-21",24,"YEARS","F","WHITE","NOT HISPANIC OR LATINO","1","ARM A","","",""
"105","ABC","DM","ABC-11-098","098","2006-12-04","","","","2006-11-27","","","","11","1939-04-27",67,"YEARS","M","WHITE","HISPANIC OR LATINO","3","ARM C","","",""
"106","ABC","DM","ABC-11-099","099","2006-12-08","","","","2006-11-17","","","","11","1942-04-20",64,"YEARS","M","WHITE","NOT HISPANIC OR LATINO","4","ARM D","","",""
"107","ABC","DM","ABC-11-100","100","2007-01-11","","","","2006-12-18","","","","11","1976-06-08",30,"YEARS","F","WHITE","NOT HISPANIC OR LATINO","2","ARM B","","",""
"108","ABC","DM","ABC-12-057","057","2006-11-14","","","","2006-10-19","","","","12","1981-01-22",25,"YEARS","F","WHITE","NOT HISPANIC OR LATINO","2","ARM B","","",""
"109","ABC","DM","ABC-12-058","058","2006-11-15","","","","2006-10-20","","","","12","1931-09-15",75,"YEARS","F","WHITE","NOT HISPANIC OR LATINO","1","ARM A","","",""
"110","ABC","DM","ABC-12-059","059","2006-11-17","2007-02-08","","","2006-11-03","2007-02-08","","","12","1966-10-18",40,"YEARS","F","WHITE","NOT HISPANIC OR LATINO","4","ARM D","","",""
"111","ABC","DM","ABC-12-060","060","2006-12-06","","","","2006-10-20","","","","12","1944-03-26",62,"YEARS","F","BLACK OR AFRICAN AMERICAN","NOT HISPANIC OR LATINO","3","ARM C","","",""
"112","ABC","DM","ABC-12-061","061","2007-01-04","","","","2006-12-13","","","","12","1959-10-29",47,"YEARS","F","WHITE","NOT HISPANIC OR LATINO","2","ARM B","","",""
"113","ABC","DM","ABC-12-062","062","2007-01-15","","","","2006-12-28","","","","12","1936-12-03",70,"YEARS","M","WHITE","NOT HISPANIC OR LATINO","1","ARM A","","",""
"114","ABC","DM","ABC-12-063","063","2007-01-23","","","","2006-12-28","","","","12","1941-02-03",65,"YEARS","F","WHITE","NOT HISPANIC OR LATINO","3","ARM C","","",""
"115","ABC","DM","ABC-13-025","025","2006-10-24","","","","2006-10-17","","","","13","1982-08-12",24,"YEARS","M","WHITE","NOT HISPANIC OR LATINO","1","ARM A","","",""
"116","ABC","DM","ABC-13-026","026","2006-11-02","","","","2006-10-25","","","","13","1955-05-13",51,"YEARS","F","WHITE","NOT HISPANIC OR LATINO","2","ARM B","","",""
"117","ABC","DM","ABC-13-027","027","2006-11-02","","","","2006-10-26","","","","13","1987-07-09",19,"YEARS","F","WHITE","HISPANIC OR LATINO","3","ARM C","","",""
"118","ABC","DM","ABC-13-028","028","2006-11-07","","","","2006-10-30","","","","13","1958-11-10",47,"YEARS","M","WHITE","NOT HISPANIC OR LATINO","4","ARM D","","",""
"119","ABC","DM","ABC-13-029","029","2006-11-15","","","","2006-11-07","","","","13","1957-05-29",49,"YEARS","F","BLACK OR AFRICAN AMERICAN","NOT HISPANIC OR LATINO","3","ARM C","","",""
"120","ABC","DM","ABC-13-030","030","2006-11-16","","","","2006-11-08","","","","13","1943-01-18",63,"YEARS","M","WHITE","NOT HISPANIC OR LATINO","4","ARM D","","",""
"121","ABC","DM","ABC-13-031","031","2006-11-21","","","","2006-11-14","","","","13","1969-11-02",37,"YEARS","F","WHITE","NOT HISPANIC OR LATINO","1","ARM A","","",""
"122","ABC","DM","ABC-13-032","032","2006-11-21","","","","2006-11-14","","","","13","1959-02-13",47,"YEARS","M","BLACK OR AFRICAN AMERICAN","NOT HISPANIC OR LATINO","2","ARM B","","",""
"123","ABC","DM","ABC-13-141","141","2006-11-21","2006-12-06","","","2006-11-15","2006-12-06","","","13","1941-12-16",64,"YEARS","F","WHITE","NOT HISPANIC OR LATINO","4","ARM D","","",""
"124","ABC","DM","ABC-13-142","142","2006-12-14","","","","2006-12-06","","","","13","1951-05-19",55,"YEARS","M","WHITE","NOT HISPANIC OR LATINO","3","ARM C","","",""
"125","ABC","DM","ABC-13-143","143","2006-12-19","","","","2006-12-11","","","","13","1973-04-12",33,"YEARS","M","WHITE","NOT HISPANIC OR LATINO","2","ARM B","","",""
"126","ABC","DM","ABC-14-081","081","2006-11-07","","","","2006-11-01","","","","14","1944-02-01",62,"YEARS","F","WHITE","NOT HISPANIC OR LATINO","2","ARM B","","",""
"127","ABC","DM","ABC-14-082","082","2006-11-13","","","","2006-10-30","","","","14","1940-04-21",66,"YEARS","M","WHITE","HISPANIC OR LATINO","4","ARM D","","",""
"128","ABC","DM","ABC-14-083","083","2006-11-14","2007-03-06","","","2006-10-31","2007-03-06","","","14","1967-07-16",39,"YEARS","F","WHITE","HISPANIC OR LATINO","3","ARM C","","",""
"129","ABC","DM","ABC-14-084","084","2006-11-14","","","","2006-10-31","","","","14","1934-10-11",72,"YEARS","M","WHITE","NOT HISPANIC OR LATINO","1","ARM A","","",""
"130","ABC","DM","ABC-14-085","085","2006-11-15","","","","2006-10-31","","","","14","1950-08-18",56,"YEARS","M","WHITE","NOT HISPANIC OR LATINO","1","ARM A","","",""
"131","ABC","DM","ABC-14-086","086","2006-11-15","","","","2006-11-06","","","","14","1957-09-26",49,"YEARS","M","WHITE","NOT HISPANIC OR LATINO","3","ARM C","","",""
"132","ABC","DM","ABC-14-087","087","2006-11-16","","","","2006-11-01","","","","14","1952-08-31",54,"YEARS","F","WHITE","NOT HISPANIC OR LATINO","4","ARM D","","",""
"133","ABC","DM","ABC-14-088","088","2006-11-20","","","","2006-10-30","","","","14","1950-06-22",56,"YEARS","F","BLACK OR AFRICAN AMERICAN","NOT HISPANIC OR LATINO","2","ARM B","","",""
"134","ABC","DM","ABC-14-117","117","2006-11-20","","","","2006-11-15","","","","14","1962-10-14",44,"YEARS","F","BLACK OR AFRICAN AMERICAN","HISPANIC OR LATINO","1","ARM A","","",""
"135","ABC","DM","ABC-14-118","118","2006-11-28","","","","2006-11-13","","","","14","1972-06-24",34,"YEARS","M","WHITE","NOT HISPANIC OR LATINO","2","ARM B","","",""
"136","ABC","DM","ABC-14-119","119","2006-11-28","2007-01-09","","","2006-10-31","2007-01-09","","","14","1958-08-26",48,"YEARS","M","WHITE","HISPANIC OR LATINO","3","ARM C","","",""
"137","ABC","DM","ABC-14-120","120","2006-11-28","","","","2006-10-30","","","","14","1936-05-25",70,"YEARS","M","WHITE","NOT HISPANIC OR LATINO","4","ARM D","","",""
"138","ABC","DM","ABC-14-121","121","2006-11-29","","","","2006-10-30","","","","14","1950-12-05",55,"YEARS","M","WHITE","NOT HISPANIC OR LATINO","3","ARM C","","",""
"139","ABC","DM","ABC-14-122","122","2006-12-18","","","","2006-12-11","","","","14","1972-05-03",34,"YEARS","M","WHITE","HISPANIC OR LATINO","4","ARM D","","",""
"140","ABC","DM","ABC-14-123","123","2006-12-19","","","","2006-11-21","","","","14","1954-05-23",52,"YEARS","F","ASIAN","NOT HISPANIC OR LATINO","1","ARM A","","",""
"141","ABC","DM","ABC-14-124","124","2006-12-28","","","","2006-12-19","","","","14","1951-06-29",55,"YEARS","M","WHITE","NOT HISPANIC OR LATINO","2","ARM B","","",""
"142","ABC","DM","ABC-15-153","153","2007-01-04","2007-02-22","","","2006-12-21","2007-02-22","","","15","1941-10-22",65,"YEARS","F","WHITE","NOT HISPANIC OR LATINO","4","ARM D","","",""
"143","ABC","DM","ABC-15-154","154","2007-01-10","2007-02-12","","","2006-12-29","2007-02-12","","","15","1936-06-05",70,"YEARS","F","WHITE","NOT HISPANIC OR LATINO","3","ARM C","","",""
"144","ABC","DM","ABC-15-155","155","2007-01-11","","","","2006-12-28","","","","15","1950-05-27",56,"YEARS","F","WHITE","NOT HISPANIC OR LATINO","1","ARM A","","",""
"145","ABC","DM","ABC-15-156","156","2007-01-11","","","","2006-12-28","","","","15","1972-01-09",35,"YEARS","F","WHITE","NOT HISPANIC OR LATINO","2","ARM B","","",""
"146","ABC","DM","ABC-16-045","045","2006-12-28","","","","2006-12-19","","","","16","1938-08-18",68,"YEARS","M","WHITE","NOT HISPANIC OR LATINO","3","ARM C","","",""
"147","ABC","DM","ABC-16-046","046","2006-12-28","2007-01-29","","","2006-12-21","2007-01-29","","","16","1935-07-21",71,"YEARS","F","WHITE","NOT HISPANIC OR LATINO","4","ARM D","","",""
"148","ABC","DM","ABC-16-047","047","2007-01-02","2007-02-01","","","2006-12-19","2007-02-01","","","16","1932-04-20",74,"YEARS","M","WHITE","NOT HISPANIC OR LATINO","1","ARM A","","",""
"149","ABC","DM","ABC-16-157","157","2006-12-14","","","","2006-12-07","","","","16","1944-09-04",62,"YEARS","M","WHITE","HISPANIC OR LATINO","1","ARM A","","",""
"150","ABC","DM","ABC-16-158","158","2006-12-19","","","","2006-12-05","","","","16","1935-05-22",71,"YEARS","M","WHITE","NOT HISPANIC OR LATINO","2","ARM B","","",""
"151","ABC","DM","ABC-16-159","159","2006-12-21","","","","2006-12-14","","","","16","1948-07-19",58,"YEARS","F","WHITE","NOT HISPANIC OR LATINO","3","ARM C","","",""
"152","ABC","DM","ABC-16-160","160","2006-12-28","","","","2006-12-19","","","","16","1962-03-08",44,"YEARS","M","WHITE","HISPANIC OR LATINO","4","ARM D","","",""
