                                                Listing 1.0
                                            Demographics Dataset

USUBJID    ARMCD    ARM            STUDYID DOMAIN SUBJID RFSTDTC    RFENDTC    RFXSTDTC RFXENDTC RFICDTC
¯¯¯¯¯¯¯¯¯¯¯¯¯¯¯¯¯¯¯¯¯¯¯¯¯¯¯¯¯¯¯¯¯¯¯¯¯¯¯¯¯¯¯¯¯¯¯¯¯¯¯¯¯¯¯¯¯¯¯¯¯¯¯¯¯¯¯¯¯¯¯¯¯¯¯¯¯¯¯¯¯¯¯¯¯¯¯¯¯¯¯¯¯¯¯¯¯¯¯¯¯¯¯¯¯¯¯
ABC-01-051 1        ARM A          ABC     DM         51 11/2/2006                               10/25/2006
ABC-01-056 1        ARM A          ABC     DM         56 11/28/2006                              11/21/2006
ABC-02-034 1        ARM A          ABC     DM         34 10/26/2006                              10/16/2006
ABC-02-038 1        ARM A          ABC     DM         38 11/13/2006                              10/30/2006
ABC-02-109 1        ARM A          ABC     DM        109 12/7/2006                               11/28/2006
ABC-03-002 1        ARM A          ABC     DM          2 10/11/2006                              9/27/2006
ABC-03-006 1        ARM A          ABC     DM          6 10/25/2006                              10/18/2006
ABC-03-091 1        ARM A          ABC     DM         91 12/20/2006                              12/11/2006
ABC-04-075 1        ARM A          ABC     DM         75 11/9/2006                               11/2/2006
ABC-04-080 1        ARM A          ABC     DM         80 12/21/2006                              12/12/2006
ABC-04-126 1        ARM A          ABC     DM        126 1/2/2007                                12/13/2006
ABC-06-068 1        ARM A          ABC     DM         68 11/22/2006                              11/16/2006
ABC-06-069 1        ARM A          ABC     DM         69 11/27/2006 1/5/2007                     11/6/2006
ABC-07-012 1        ARM A          ABC     DM         12 12/13/2006                              12/6/2006
ABC-07-016 1        ARM A          ABC     DM         16 12/26/2006                              12/18/2006
ABC-08-104 1        ARM A          ABC     DM        104 11/9/2006                               11/9/2006
ABC-08-106 1        ARM A          ABC     DM        106 11/14/2006                              10/30/2006
ABC-09-020 1        ARM A          ABC     DM         20 10/18/2006                              10/4/2006
ABC-09-023 1        ARM A          ABC     DM         23 11/16/2006                              11/14/2006
ABC-09-137 1        ARM A          ABC     DM        137 11/21/2006                              11/17/2006
ABC-10-043 1        ARM A          ABC     DM         43 2/9/2007                                12/18/2006
ABC-10-145 1        ARM A          ABC     DM        145 12/8/2006                               12/1/2006
ABC-10-149 1        ARM A          ABC     DM        149 12/13/2006                              11/30/2006
ABC-11-094 1        ARM A          ABC     DM         94 11/8/2006                               11/6/2006
ABC-11-097 1        ARM A          ABC     DM         97 11/28/2006                              11/8/2006
ABC-12-058 1        ARM A          ABC     DM         58 11/15/2006                              10/20/2006
ABC-12-062 1        ARM A          ABC     DM         62 1/15/2007                               12/28/2006
ABC-13-025 1        ARM A          ABC     DM         25 10/24/2006                              10/17/2006
ABC-13-031 1        ARM A          ABC     DM         31 11/21/2006                              11/14/2006
ABC-14-084 1        ARM A          ABC     DM         84 11/14/2006                              10/31/2006
ABC-14-085 1        ARM A          ABC     DM         85 11/15/2006                              10/31/2006
ABC-14-117 1        ARM A          ABC     DM        117 11/20/2006                              11/15/2006
ABC-14-123 1        ARM A          ABC     DM        123 12/19/2006                              11/21/2006
ABC-15-155 1        ARM A          ABC     DM        155 1/11/2007                               12/28/2006
ABC-16-047 1        ARM A          ABC     DM         47 1/2/2007   2/1/2007                     12/19/2006

Time                                                                                            Page 1 of 27
                                                Listing 1.0
                                            Demographics Dataset

USUBJID    ARMCD    ARM            RFPENDTC   DTHDTC DTHFL SITEID BRTHDTC    AGE AGEU  SEX
¯¯¯¯¯¯¯¯¯¯¯¯¯¯¯¯¯¯¯¯¯¯¯¯¯¯¯¯¯¯¯¯¯¯¯¯¯¯¯¯¯¯¯¯¯¯¯¯¯¯¯¯¯¯¯¯¯¯¯¯¯¯¯¯¯¯¯¯¯¯¯¯¯¯¯¯¯¯¯¯¯¯¯¯¯¯¯¯¯¯
ABC-01-051 1        ARM A                                       1 5/2/1972    34 YEARS M
ABC-01-056 1        ARM A                                       1 5/2/1975    31 YEARS M
ABC-02-034 1        ARM A                                       2 10/5/1933   73 YEARS F
ABC-02-038 1        ARM A                                       2 7/2/1947    59 YEARS M
ABC-02-109 1        ARM A                                       2 9/3/1969    37 YEARS M
ABC-03-002 1        ARM A                                       3 3/20/1935   71 YEARS M
ABC-03-006 1        ARM A                                       3 12/12/1958  47 YEARS M
ABC-03-091 1        ARM A                                       3 2/20/1955   51 YEARS F
ABC-04-075 1        ARM A                                       4 4/7/1943    63 YEARS M
ABC-04-080 1        ARM A                                       4 5/7/1951    55 YEARS M
ABC-04-126 1        ARM A                                       4 5/13/1957   49 YEARS M
ABC-06-068 1        ARM A                                       6 9/12/1954   52 YEARS F
ABC-06-069 1        ARM A          1/5/2007                     6 11/15/1934  72 YEARS F
ABC-07-012 1        ARM A                                       7 8/12/1948   58 YEARS F
ABC-07-016 1        ARM A                                       7 8/6/1957    49 YEARS M
ABC-08-104 1        ARM A                                       8 7/1/1958    48 YEARS M
ABC-08-106 1        ARM A                                       8 6/17/1946   60 YEARS M
ABC-09-020 1        ARM A                                       9 9/22/1953   53 YEARS M
ABC-09-023 1        ARM A                                       9 4/3/1965    41 YEARS M
ABC-09-137 1        ARM A                                       9 10/26/1946  60 YEARS M
ABC-10-043 1        ARM A                                      10 9/28/1982   24 YEARS F
ABC-10-145 1        ARM A                                      10 10/15/1975  31 YEARS M
ABC-10-149 1        ARM A                                      10 7/17/1949   57 YEARS M
ABC-11-094 1        ARM A                                      11 10/3/1966   40 YEARS M
ABC-11-097 1        ARM A                                      11 6/21/1982   24 YEARS F
ABC-12-058 1        ARM A                                      12 9/15/1931   75 YEARS F
ABC-12-062 1        ARM A                                      12 12/3/1936   70 YEARS M
ABC-13-025 1        ARM A                                      13 8/12/1982   24 YEARS M
ABC-13-031 1        ARM A                                      13 11/2/1969   37 YEARS F
ABC-14-084 1        ARM A                                      14 10/11/1934  72 YEARS M
ABC-14-085 1        ARM A                                      14 8/18/1950   56 YEARS M
ABC-14-117 1        ARM A                                      14 10/14/1962  44 YEARS F
ABC-14-123 1        ARM A                                      14 5/23/1954   52 YEARS F
ABC-15-155 1        ARM A                                      15 5/27/1950   56 YEARS F
ABC-16-047 1        ARM A          2/1/2007                    16 4/20/1932   74 YEARS M

Time                                                                                            Page 2 of 27
                                                Listing 1.0
                                            Demographics Dataset

USUBJID    ARMCD    ARM            RACE                      ETHNIC                 ACTARMCD ACTARM COUNTRY
¯¯¯¯¯¯¯¯¯¯¯¯¯¯¯¯¯¯¯¯¯¯¯¯¯¯¯¯¯¯¯¯¯¯¯¯¯¯¯¯¯¯¯¯¯¯¯¯¯¯¯¯¯¯¯¯¯¯¯¯¯¯¯¯¯¯¯¯¯¯¯¯¯¯¯¯¯¯¯¯¯¯¯¯¯¯¯¯¯¯¯¯¯¯¯¯¯¯¯¯¯¯¯¯¯¯¯
ABC-01-051 1        ARM A          WHITE                     NOT HISPANIC OR LATINO
ABC-01-056 1        ARM A          WHITE                     NOT HISPANIC OR LATINO
ABC-02-034 1        ARM A          WHITE                     NOT HISPANIC OR LATINO
ABC-02-038 1        ARM A          WHITE                     NOT HISPANIC OR LATINO
ABC-02-109 1        ARM A          WHITE                     NOT HISPANIC OR LATINO
ABC-03-002 1        ARM A          WHITE                     NOT HISPANIC OR LATINO
ABC-03-006 1        ARM A          WHITE                     NOT HISPANIC OR LATINO
ABC-03-091 1        ARM A          WHITE                     NOT HISPANIC OR LATINO
ABC-04-075 1        ARM A          WHITE                     NOT HISPANIC OR LATINO
ABC-04-080 1        ARM A          WHITE                     NOT HISPANIC OR LATINO
ABC-04-126 1        ARM A          WHITE                     NOT HISPANIC OR LATINO
ABC-06-068 1        ARM A          WHITE                     NOT HISPANIC OR LATINO
ABC-06-069 1        ARM A          WHITE                     NOT HISPANIC OR LATINO
ABC-07-012 1        ARM A          WHITE                     NOT HISPANIC OR LATINO
ABC-07-016 1        ARM A          WHITE                     NOT HISPANIC OR LATINO
ABC-08-104 1        ARM A          WHITE                     NOT HISPANIC OR LATINO
ABC-08-106 1        ARM A          WHITE                     NOT HISPANIC OR LATINO
ABC-09-020 1        ARM A          WHITE                     NOT HISPANIC OR LATINO
ABC-09-023 1        ARM A          BLACK OR AFRICAN AMERICAN NOT HISPANIC OR LATINO
ABC-09-137 1        ARM A          WHITE                     NOT HISPANIC OR LATINO
ABC-10-043 1        ARM A          WHITE                     NOT HISPANIC OR LATINO
ABC-10-145 1        ARM A          UNKNOWN                   HISPANIC OR LATINO
ABC-10-149 1        ARM A          BLACK OR AFRICAN AMERICAN NOT HISPANIC OR LATINO
ABC-11-094 1        ARM A          WHITE                     NOT HISPANIC OR LATINO
ABC-11-097 1        ARM A          WHITE                     NOT HISPANIC OR LATINO
ABC-12-058 1        ARM A          WHITE                     NOT HISPANIC OR LATINO
ABC-12-062 1        ARM A          WHITE                     NOT HISPANIC OR LATINO
ABC-13-025 1        ARM A          WHITE                     NOT HISPANIC OR LATINO
ABC-13-031 1        ARM A          WHITE                     NOT HISPANIC OR LATINO
ABC-14-084 1        ARM A          WHITE                     NOT HISPANIC OR LATINO
ABC-14-085 1        ARM A          WHITE                     NOT HISPANIC OR LATINO
ABC-14-117 1        ARM A          BLACK OR AFRICAN AMERICAN HISPANIC OR LATINO
ABC-14-123 1        ARM A          ASIAN                     NOT HISPANIC OR LATINO
ABC-15-155 1        ARM A          WHITE                     NOT HISPANIC OR LATINO
ABC-16-047 1        ARM A          WHITE                     NOT HISPANIC OR LATINO

Time                                                                                            Page 3 of 27
                                                Listing 1.0
                                            Demographics Dataset

USUBJID    ARMCD    ARM            STUDYID DOMAIN SUBJID RFSTDTC    RFENDTC    RFXSTDTC RFXENDTC RFICDTC
¯¯¯¯¯¯¯¯¯¯¯¯¯¯¯¯¯¯¯¯¯¯¯¯¯¯¯¯¯¯¯¯¯¯¯¯¯¯¯¯¯¯¯¯¯¯¯¯¯¯¯¯¯¯¯¯¯¯¯¯¯¯¯¯¯¯¯¯¯¯¯¯¯¯¯¯¯¯¯¯¯¯¯¯¯¯¯¯¯¯¯¯¯¯¯¯¯¯¯¯¯¯¯¯¯¯¯
ABC-16-157 1        ARM A          ABC     DM        157 12/14/2006                              12/7/2006



































Time                                                                                            Page 4 of 27
                                                Listing 1.0
                                            Demographics Dataset

USUBJID    ARMCD    ARM            RFPENDTC   DTHDTC DTHFL SITEID BRTHDTC    AGE AGEU  SEX
¯¯¯¯¯¯¯¯¯¯¯¯¯¯¯¯¯¯¯¯¯¯¯¯¯¯¯¯¯¯¯¯¯¯¯¯¯¯¯¯¯¯¯¯¯¯¯¯¯¯¯¯¯¯¯¯¯¯¯¯¯¯¯¯¯¯¯¯¯¯¯¯¯¯¯¯¯¯¯¯¯¯¯¯¯¯¯¯¯¯
ABC-16-157 1        ARM A                                      16 9/4/1944    62 YEARS M



































Time                                                                                            Page 5 of 27
                                                Listing 1.0
                                            Demographics Dataset

USUBJID    ARMCD    ARM            RACE                      ETHNIC                 ACTARMCD ACTARM COUNTRY
¯¯¯¯¯¯¯¯¯¯¯¯¯¯¯¯¯¯¯¯¯¯¯¯¯¯¯¯¯¯¯¯¯¯¯¯¯¯¯¯¯¯¯¯¯¯¯¯¯¯¯¯¯¯¯¯¯¯¯¯¯¯¯¯¯¯¯¯¯¯¯¯¯¯¯¯¯¯¯¯¯¯¯¯¯¯¯¯¯¯¯¯¯¯¯¯¯¯¯¯¯¯¯¯¯¯¯
ABC-16-157 1        ARM A          WHITE                     HISPANIC OR LATINO



































Time                                                                                            Page 6 of 27
                                                Listing 1.0
                                            Demographics Dataset

USUBJID    ARMCD    ARM            STUDYID DOMAIN SUBJID RFSTDTC    RFENDTC    RFXSTDTC RFXENDTC RFICDTC
¯¯¯¯¯¯¯¯¯¯¯¯¯¯¯¯¯¯¯¯¯¯¯¯¯¯¯¯¯¯¯¯¯¯¯¯¯¯¯¯¯¯¯¯¯¯¯¯¯¯¯¯¯¯¯¯¯¯¯¯¯¯¯¯¯¯¯¯¯¯¯¯¯¯¯¯¯¯¯¯¯¯¯¯¯¯¯¯¯¯¯¯¯¯¯¯¯¯¯¯¯¯¯¯¯¯¯
ABC-01-050 2        ARM B          ABC     DM         50 11/2/2006                               10/25/2006
ABC-01-053 2        ARM B          ABC     DM         53 11/8/2006                               11/1/2006
ABC-01-114 2        ARM B          ABC     DM        114 12/14/2006                              12/1/2006
ABC-02-035 2        ARM B          ABC     DM         35 10/31/2006                              10/16/2006
ABC-02-039 2        ARM B          ABC     DM         39 11/15/2006                              11/6/2006
ABC-02-110 2        ARM B          ABC     DM        110 12/18/2006                              12/11/2006
ABC-03-001 2        ARM B          ABC     DM          1 10/10/2006                              9/26/2006
ABC-03-007 2        ARM B          ABC     DM          7 10/31/2006                              10/27/2006
ABC-04-076 2        ARM B          ABC     DM         76 11/15/2006                              10/26/2006
ABC-04-079 2        ARM B          ABC     DM         79 12/18/2006                              12/11/2006
ABC-04-127 2        ARM B          ABC     DM        127 1/3/2007                                12/14/2006
ABC-04-131 2        ARM B          ABC     DM        131 1/10/2007                               12/18/2006
ABC-06-066 2        ARM B          ABC     DM         66 11/14/2006                              11/6/2006
ABC-06-070 2        ARM B          ABC     DM         70 11/29/2006                              11/17/2006
ABC-07-010 2        ARM B          ABC     DM         10 11/22/2006                              11/15/2006
ABC-07-015 2        ARM B          ABC     DM         15 12/20/2006                              12/13/2006
ABC-08-103 2        ARM B          ABC     DM        103 11/9/2006                               11/2/2006
ABC-08-108 2        ARM B          ABC     DM        108 12/22/2006                              12/4/2006
ABC-09-018 2        ARM B          ABC     DM         18 10/18/2006                              10/4/2006
ABC-09-021 2        ARM B          ABC     DM         21 11/1/2006                               10/5/2006
ABC-09-140 2        ARM B          ABC     DM        140 11/28/2006                              11/22/2006
ABC-10-041 2        ARM B          ABC     DM         41 12/20/2006                              12/20/2006
ABC-10-148 2        ARM B          ABC     DM        148 12/12/2006                              11/30/2006
ABC-10-151 2        ARM B          ABC     DM        151 12/28/2006                              12/8/2006
ABC-11-048 2        ARM B          ABC     DM         48 1/18/2007                               12/28/2006
ABC-11-093 2        ARM B          ABC     DM         93 11/8/2006                               11/2/2006
ABC-11-100 2        ARM B          ABC     DM        100 1/11/2007                               12/18/2006
ABC-12-057 2        ARM B          ABC     DM         57 11/14/2006                              10/19/2006
ABC-12-061 2        ARM B          ABC     DM         61 1/4/2007                                12/13/2006
ABC-13-026 2        ARM B          ABC     DM         26 11/2/2006                               10/25/2006
ABC-13-032 2        ARM B          ABC     DM         32 11/21/2006                              11/14/2006
ABC-13-143 2        ARM B          ABC     DM        143 12/19/2006                              12/11/2006
ABC-14-081 2        ARM B          ABC     DM         81 11/7/2006                               11/1/2006
ABC-14-088 2        ARM B          ABC     DM         88 11/20/2006                              10/30/2006
ABC-14-118 2        ARM B          ABC     DM        118 11/28/2006                              11/13/2006

Time                                                                                            Page 7 of 27
                                                Listing 1.0
                                            Demographics Dataset

USUBJID    ARMCD    ARM            RFPENDTC   DTHDTC DTHFL SITEID BRTHDTC    AGE AGEU  SEX
¯¯¯¯¯¯¯¯¯¯¯¯¯¯¯¯¯¯¯¯¯¯¯¯¯¯¯¯¯¯¯¯¯¯¯¯¯¯¯¯¯¯¯¯¯¯¯¯¯¯¯¯¯¯¯¯¯¯¯¯¯¯¯¯¯¯¯¯¯¯¯¯¯¯¯¯¯¯¯¯¯¯¯¯¯¯¯¯¯¯
ABC-01-050 2        ARM B                                       1 12/19/1958  47 YEARS M
ABC-01-053 2        ARM B                                       1 4/7/1980    26 YEARS F
ABC-01-114 2        ARM B                                       1 7/9/1934    72 YEARS F
ABC-02-035 2        ARM B                                       2 9/25/1960   46 YEARS M
ABC-02-039 2        ARM B                                       2 4/11/1971   35 YEARS M
ABC-02-110 2        ARM B                                       2 8/12/1966   40 YEARS F
ABC-03-001 2        ARM B                                       3 6/16/1941   65 YEARS M
ABC-03-007 2        ARM B                                       3 12/1/1948   57 YEARS M
ABC-04-076 2        ARM B                                       4 12/9/1954   51 YEARS M
ABC-04-079 2        ARM B                                       4 11/11/1933  73 YEARS F
ABC-04-127 2        ARM B                                       4 3/18/1937   69 YEARS M
ABC-04-131 2        ARM B                                       4 3/10/1935   71 YEARS M
ABC-06-066 2        ARM B                                       6 1/1/1945    61 YEARS F
ABC-06-070 2        ARM B                                       6 2/1/1980    26 YEARS M
ABC-07-010 2        ARM B                                       7 7/12/1960   46 YEARS F
ABC-07-015 2        ARM B                                       7 4/17/1971   35 YEARS F
ABC-08-103 2        ARM B                                       8 9/17/1973   33 YEARS M
ABC-08-108 2        ARM B                                       8 3/24/1960   46 YEARS F
ABC-09-018 2        ARM B                                       9 8/29/1984   22 YEARS F
ABC-09-021 2        ARM B                                       9 11/8/1973   32 YEARS F
ABC-09-140 2        ARM B                                       9 1/5/1964    42 YEARS F
ABC-10-041 2        ARM B                                      10 2/24/1962   44 YEARS F
ABC-10-148 2        ARM B                                      10 10/1/1963   43 YEARS M
ABC-10-151 2        ARM B                                      10 6/21/1940   66 YEARS M
ABC-11-048 2        ARM B                                      11 11/12/1968  38 YEARS F
ABC-11-093 2        ARM B                                      11 10/21/1954  52 YEARS M
ABC-11-100 2        ARM B                                      11 6/8/1976    30 YEARS F
ABC-12-057 2        ARM B                                      12 1/22/1981   25 YEARS F
ABC-12-061 2        ARM B                                      12 10/29/1959  47 YEARS F
ABC-13-026 2        ARM B                                      13 5/13/1955   51 YEARS F
ABC-13-032 2        ARM B                                      13 2/13/1959   47 YEARS M
ABC-13-143 2        ARM B                                      13 4/12/1973   33 YEARS M
ABC-14-081 2        ARM B                                      14 2/1/1944    62 YEARS F
ABC-14-088 2        ARM B                                      14 6/22/1950   56 YEARS F
ABC-14-118 2        ARM B                                      14 6/24/1972   34 YEARS M

Time                                                                                            Page 8 of 27
                                                Listing 1.0
                                            Demographics Dataset

USUBJID    ARMCD    ARM            RACE                      ETHNIC                 ACTARMCD ACTARM COUNTRY
¯¯¯¯¯¯¯¯¯¯¯¯¯¯¯¯¯¯¯¯¯¯¯¯¯¯¯¯¯¯¯¯¯¯¯¯¯¯¯¯¯¯¯¯¯¯¯¯¯¯¯¯¯¯¯¯¯¯¯¯¯¯¯¯¯¯¯¯¯¯¯¯¯¯¯¯¯¯¯¯¯¯¯¯¯¯¯¯¯¯¯¯¯¯¯¯¯¯¯¯¯¯¯¯¯¯¯
ABC-01-050 2        ARM B          WHITE                     NOT HISPANIC OR LATINO
ABC-01-053 2        ARM B          WHITE                     NOT HISPANIC OR LATINO
ABC-01-114 2        ARM B          WHITE                     UNKNOWN
ABC-02-035 2        ARM B          WHITE                     NOT HISPANIC OR LATINO
ABC-02-039 2        ARM B          WHITE                     NOT HISPANIC OR LATINO
ABC-02-110 2        ARM B          WHITE                     NOT HISPANIC OR LATINO
ABC-03-001 2        ARM B          WHITE                     NOT HISPANIC OR LATINO
ABC-03-007 2        ARM B          WHITE                     NOT HISPANIC OR LATINO
ABC-04-076 2        ARM B          WHITE                     NOT HISPANIC OR LATINO
ABC-04-079 2        ARM B          WHITE                     NOT HISPANIC OR LATINO
ABC-04-127 2        ARM B          ASIAN                     NOT HISPANIC OR LATINO
ABC-04-131 2        ARM B          WHITE                     NOT HISPANIC OR LATINO
ABC-06-066 2        ARM B          WHITE                     NOT HISPANIC OR LATINO
ABC-06-070 2        ARM B          WHITE                     NOT HISPANIC OR LATINO
ABC-07-010 2        ARM B          WHITE                     NOT HISPANIC OR LATINO
ABC-07-015 2        ARM B          WHITE                     NOT HISPANIC OR LATINO
ABC-08-103 2        ARM B          UNKNOWN                   NOT HISPANIC OR LATINO
ABC-08-108 2        ARM B          WHITE                     NOT HISPANIC OR LATINO
ABC-09-018 2        ARM B          WHITE                     NOT HISPANIC OR LATINO
ABC-09-021 2        ARM B          BLACK OR AFRICAN AMERICAN HISPANIC OR LATINO
ABC-09-140 2        ARM B          WHITE                     NOT HISPANIC OR LATINO
ABC-10-041 2        ARM B          WHITE                     HISPANIC OR LATINO
ABC-10-148 2        ARM B          WHITE                     NOT HISPANIC OR LATINO
ABC-10-151 2        ARM B          WHITE                     HISPANIC OR LATINO
ABC-11-048 2        ARM B          ASIAN                     UNKNOWN
ABC-11-093 2        ARM B          WHITE                     NOT HISPANIC OR LATINO
ABC-11-100 2        ARM B          WHITE                     NOT HISPANIC OR LATINO
ABC-12-057 2        ARM B          WHITE                     NOT HISPANIC OR LATINO
ABC-12-061 2        ARM B          WHITE                     NOT HISPANIC OR LATINO
ABC-13-026 2        ARM B          WHITE                     NOT HISPANIC OR LATINO
ABC-13-032 2        ARM B          BLACK OR AFRICAN AMERICAN NOT HISPANIC OR LATINO
ABC-13-143 2        ARM B          WHITE                     NOT HISPANIC OR LATINO
ABC-14-081 2        ARM B          WHITE                     NOT HISPANIC OR LATINO
ABC-14-088 2        ARM B          BLACK OR AFRICAN AMERICAN NOT HISPANIC OR LATINO
ABC-14-118 2        ARM B          WHITE                     NOT HISPANIC OR LATINO

Time                                                                                            Page 9 of 27
                                                Listing 1.0
                                            Demographics Dataset

USUBJID    ARMCD    ARM            STUDYID DOMAIN SUBJID RFSTDTC    RFENDTC    RFXSTDTC RFXENDTC RFICDTC
¯¯¯¯¯¯¯¯¯¯¯¯¯¯¯¯¯¯¯¯¯¯¯¯¯¯¯¯¯¯¯¯¯¯¯¯¯¯¯¯¯¯¯¯¯¯¯¯¯¯¯¯¯¯¯¯¯¯¯¯¯¯¯¯¯¯¯¯¯¯¯¯¯¯¯¯¯¯¯¯¯¯¯¯¯¯¯¯¯¯¯¯¯¯¯¯¯¯¯¯¯¯¯¯¯¯¯
ABC-14-124 2        ARM B          ABC     DM        124 12/28/2006                              12/19/2006
ABC-15-156 2        ARM B          ABC     DM        156 1/11/2007                               12/28/2006
ABC-16-158 2        ARM B          ABC     DM        158 12/19/2006                              12/5/2006

































Time                                                                                           Page 10 of 27
                                                Listing 1.0
                                            Demographics Dataset

USUBJID    ARMCD    ARM            RFPENDTC   DTHDTC DTHFL SITEID BRTHDTC    AGE AGEU  SEX
¯¯¯¯¯¯¯¯¯¯¯¯¯¯¯¯¯¯¯¯¯¯¯¯¯¯¯¯¯¯¯¯¯¯¯¯¯¯¯¯¯¯¯¯¯¯¯¯¯¯¯¯¯¯¯¯¯¯¯¯¯¯¯¯¯¯¯¯¯¯¯¯¯¯¯¯¯¯¯¯¯¯¯¯¯¯¯¯¯¯
ABC-14-124 2        ARM B                                      14 6/29/1951   55 YEARS M
ABC-15-156 2        ARM B                                      15 1/9/1972    35 YEARS F
ABC-16-158 2        ARM B                                      16 5/22/1935   71 YEARS M

































Time                                                                                           Page 11 of 27
                                                Listing 1.0
                                            Demographics Dataset

USUBJID    ARMCD    ARM            RACE                      ETHNIC                 ACTARMCD ACTARM COUNTRY
¯¯¯¯¯¯¯¯¯¯¯¯¯¯¯¯¯¯¯¯¯¯¯¯¯¯¯¯¯¯¯¯¯¯¯¯¯¯¯¯¯¯¯¯¯¯¯¯¯¯¯¯¯¯¯¯¯¯¯¯¯¯¯¯¯¯¯¯¯¯¯¯¯¯¯¯¯¯¯¯¯¯¯¯¯¯¯¯¯¯¯¯¯¯¯¯¯¯¯¯¯¯¯¯¯¯¯
ABC-14-124 2        ARM B          WHITE                     NOT HISPANIC OR LATINO
ABC-15-156 2        ARM B          WHITE                     NOT HISPANIC OR LATINO
ABC-16-158 2        ARM B          WHITE                     NOT HISPANIC OR LATINO

































Time                                                                                           Page 12 of 27
                                                Listing 1.0
                                            Demographics Dataset

USUBJID    ARMCD    ARM            STUDYID DOMAIN SUBJID RFSTDTC    RFENDTC    RFXSTDTC RFXENDTC RFICDTC
¯¯¯¯¯¯¯¯¯¯¯¯¯¯¯¯¯¯¯¯¯¯¯¯¯¯¯¯¯¯¯¯¯¯¯¯¯¯¯¯¯¯¯¯¯¯¯¯¯¯¯¯¯¯¯¯¯¯¯¯¯¯¯¯¯¯¯¯¯¯¯¯¯¯¯¯¯¯¯¯¯¯¯¯¯¯¯¯¯¯¯¯¯¯¯¯¯¯¯¯¯¯¯¯¯¯¯
ABC-01-052 3        ARM C          ABC     DM         52 11/6/2006                               10/31/2006
ABC-01-055 3        ARM C          ABC     DM         55 12/6/2006                               10/31/2006
ABC-02-033 3        ARM C          ABC     DM         33 10/25/2006                              10/16/2006
ABC-02-037 3        ARM C          ABC     DM         37 11/1/2006                               10/24/2006
ABC-02-112 3        ARM C          ABC     DM        112 12/19/2006                              12/12/2006
ABC-03-004 3        ARM C          ABC     DM          4 10/12/2006                              9/27/2006
ABC-03-005 3        ARM C          ABC     DM          5 10/12/2006                              9/27/2006
ABC-04-074 3        ARM C          ABC     DM         74 11/1/2006  11/20/2006                   10/16/2006
ABC-04-077 3        ARM C          ABC     DM         77 11/15/2006                              11/2/2006
ABC-04-128 3        ARM C          ABC     DM        128 1/4/2007                                12/21/2006
ABC-04-130 3        ARM C          ABC     DM        130 1/8/2007                                12/18/2006
ABC-06-065 3        ARM C          ABC     DM         65 11/8/2006                               10/27/2006
ABC-06-072 3        ARM C          ABC     DM         72 12/5/2006                               11/28/2006
ABC-06-161 3        ARM C          ABC     DM        161 12/12/2006 1/4/2007                     12/8/2006
ABC-07-009 3        ARM C          ABC     DM          9 10/18/2006                              10/11/2006
ABC-07-014 3        ARM C          ABC     DM         14 12/18/2006                              12/11/2006
ABC-08-101 3        ARM C          ABC     DM        101 11/7/2006                               10/23/2006
ABC-08-105 3        ARM C          ABC     DM        105 11/13/2006                              10/30/2006
ABC-09-017 3        ARM C          ABC     DM         17 10/18/2006                              10/6/2006
ABC-09-024 3        ARM C          ABC     DM         24 11/16/2006                              11/9/2006
ABC-09-139 3        ARM C          ABC     DM        139 11/21/2006                              11/17/2006
ABC-10-042 3        ARM C          ABC     DM         42 1/10/2007                               12/18/2006
ABC-10-147 3        ARM C          ABC     DM        147 12/12/2006                              12/1/2006
ABC-10-152 3        ARM C          ABC     DM        152 1/8/2007                                12/15/2006
ABC-11-095 3        ARM C          ABC     DM         95 11/10/2006                              11/7/2006
ABC-11-098 3        ARM C          ABC     DM         98 12/4/2006                               11/27/2006
ABC-12-060 3        ARM C          ABC     DM         60 12/6/2006                               10/20/2006
ABC-12-063 3        ARM C          ABC     DM         63 1/23/2007                               12/28/2006
ABC-13-027 3        ARM C          ABC     DM         27 11/2/2006                               10/26/2006
ABC-13-029 3        ARM C          ABC     DM         29 11/15/2006                              11/7/2006
ABC-13-142 3        ARM C          ABC     DM        142 12/14/2006                              12/6/2006
ABC-14-083 3        ARM C          ABC     DM         83 11/14/2006 3/6/2007                     10/31/2006
ABC-14-086 3        ARM C          ABC     DM         86 11/15/2006                              11/6/2006
ABC-14-119 3        ARM C          ABC     DM        119 11/28/2006 1/9/2007                     10/31/2006
ABC-14-121 3        ARM C          ABC     DM        121 11/29/2006                              10/30/2006

Time                                                                                           Page 13 of 27
                                                Listing 1.0
                                            Demographics Dataset

USUBJID    ARMCD    ARM            RFPENDTC   DTHDTC DTHFL SITEID BRTHDTC    AGE AGEU  SEX
¯¯¯¯¯¯¯¯¯¯¯¯¯¯¯¯¯¯¯¯¯¯¯¯¯¯¯¯¯¯¯¯¯¯¯¯¯¯¯¯¯¯¯¯¯¯¯¯¯¯¯¯¯¯¯¯¯¯¯¯¯¯¯¯¯¯¯¯¯¯¯¯¯¯¯¯¯¯¯¯¯¯¯¯¯¯¯¯¯¯
ABC-01-052 3        ARM C                                       1 6/27/1961   45 YEARS F
ABC-01-055 3        ARM C                                       1 6/11/1959   47 YEARS F
ABC-02-033 3        ARM C                                       2 2/1/1968    38 YEARS F
ABC-02-037 3        ARM C                                       2 7/28/1960   46 YEARS M
ABC-02-112 3        ARM C                                       2 11/1/1976   30 YEARS F
ABC-03-004 3        ARM C                                       3 7/8/1961    45 YEARS M
ABC-03-005 3        ARM C                                       3 12/10/1952  53 YEARS M
ABC-04-074 3        ARM C          11/20/2006                   4 3/28/1983   23 YEARS F
ABC-04-077 3        ARM C                                       4 2/20/1954   52 YEARS F
ABC-04-128 3        ARM C                                       4 5/24/1987   19 YEARS M
ABC-04-130 3        ARM C                                       4 2/28/1937   69 YEARS M
ABC-06-065 3        ARM C                                       6 4/4/1972    34 YEARS M
ABC-06-072 3        ARM C                                       6 7/12/1960   46 YEARS M
ABC-06-161 3        ARM C          1/4/2007                     6 2/3/1958    48 YEARS M
ABC-07-009 3        ARM C                                       7 4/18/1945   61 YEARS F
ABC-07-014 3        ARM C                                       7 4/19/1935   71 YEARS M
ABC-08-101 3        ARM C                                       8 3/16/1952   54 YEARS F
ABC-08-105 3        ARM C                                       8 5/11/1962   44 YEARS M
ABC-09-017 3        ARM C                                       9 9/28/1945   61 YEARS M
ABC-09-024 3        ARM C                                       9 5/3/1953    53 YEARS M
ABC-09-139 3        ARM C                                       9 11/13/1985  21 YEARS F
ABC-10-042 3        ARM C                                      10 1/4/1982    25 YEARS F
ABC-10-147 3        ARM C                                      10 7/2/1954    52 YEARS M
ABC-10-152 3        ARM C                                      10 11/3/1943   63 YEARS M
ABC-11-095 3        ARM C                                      11 8/2/1944    62 YEARS M
ABC-11-098 3        ARM C                                      11 4/27/1939   67 YEARS M
ABC-12-060 3        ARM C                                      12 3/26/1944   62 YEARS F
ABC-12-063 3        ARM C                                      12 2/3/1941    65 YEARS F
ABC-13-027 3        ARM C                                      13 7/9/1987    19 YEARS F
ABC-13-029 3        ARM C                                      13 5/29/1957   49 YEARS F
ABC-13-142 3        ARM C                                      13 5/19/1951   55 YEARS M
ABC-14-083 3        ARM C          3/6/2007                    14 7/16/1967   39 YEARS F
ABC-14-086 3        ARM C                                      14 9/26/1957   49 YEARS M
ABC-14-119 3        ARM C          1/9/2007                    14 8/26/1958   48 YEARS M
ABC-14-121 3        ARM C                                      14 12/5/1950   55 YEARS M

Time                                                                                           Page 14 of 27
                                                Listing 1.0
                                            Demographics Dataset

USUBJID    ARMCD    ARM            RACE                      ETHNIC                 ACTARMCD ACTARM COUNTRY
¯¯¯¯¯¯¯¯¯¯¯¯¯¯¯¯¯¯¯¯¯¯¯¯¯¯¯¯¯¯¯¯¯¯¯¯¯¯¯¯¯¯¯¯¯¯¯¯¯¯¯¯¯¯¯¯¯¯¯¯¯¯¯¯¯¯¯¯¯¯¯¯¯¯¯¯¯¯¯¯¯¯¯¯¯¯¯¯¯¯¯¯¯¯¯¯¯¯¯¯¯¯¯¯¯¯¯
ABC-01-052 3        ARM C          WHITE                     UNKNOWN
ABC-01-055 3        ARM C          BLACK OR AFRICAN AMERICAN UNKNOWN
ABC-02-033 3        ARM C          WHITE                     NOT HISPANIC OR LATINO
ABC-02-037 3        ARM C          WHITE                     HISPANIC OR LATINO
ABC-02-112 3        ARM C          WHITE                     NOT HISPANIC OR LATINO
ABC-03-004 3        ARM C          WHITE                     NOT HISPANIC OR LATINO
ABC-03-005 3        ARM C          WHITE                     NOT HISPANIC OR LATINO
ABC-04-074 3        ARM C          WHITE                     NOT HISPANIC OR LATINO
ABC-04-077 3        ARM C          WHITE                     NOT HISPANIC OR LATINO
ABC-04-128 3        ARM C          WHITE                     NOT HISPANIC OR LATINO
ABC-04-130 3        ARM C          WHITE                     NOT HISPANIC OR LATINO
ABC-06-065 3        ARM C          WHITE                     NOT HISPANIC OR LATINO
ABC-06-072 3        ARM C          WHITE                     NOT HISPANIC OR LATINO
ABC-06-161 3        ARM C          WHITE                     NOT HISPANIC OR LATINO
ABC-07-009 3        ARM C          WHITE                     NOT HISPANIC OR LATINO
ABC-07-014 3        ARM C          WHITE                     NOT HISPANIC OR LATINO
ABC-08-101 3        ARM C          WHITE                     NOT HISPANIC OR LATINO
ABC-08-105 3        ARM C          WHITE                     NOT HISPANIC OR LATINO
ABC-09-017 3        ARM C          BLACK OR AFRICAN AMERICAN HISPANIC OR LATINO
ABC-09-024 3        ARM C          BLACK OR AFRICAN AMERICAN NOT HISPANIC OR LATINO
ABC-09-139 3        ARM C          WHITE                     NOT HISPANIC OR LATINO
ABC-10-042 3        ARM C          WHITE                     NOT HISPANIC OR LATINO
ABC-10-147 3        ARM C          BLACK OR AFRICAN AMERICAN NOT HISPANIC OR LATINO
ABC-10-152 3        ARM C          WHITE                     NOT HISPANIC OR LATINO
ABC-11-095 3        ARM C          WHITE                     HISPANIC OR LATINO
ABC-11-098 3        ARM C          WHITE                     HISPANIC OR LATINO
ABC-12-060 3        ARM C          BLACK OR AFRICAN AMERICAN NOT HISPANIC OR LATINO
ABC-12-063 3        ARM C          WHITE                     NOT HISPANIC OR LATINO
ABC-13-027 3        ARM C          WHITE                     HISPANIC OR LATINO
ABC-13-029 3        ARM C          BLACK OR AFRICAN AMERICAN NOT HISPANIC OR LATINO
ABC-13-142 3        ARM C          WHITE                     NOT HISPANIC OR LATINO
ABC-14-083 3        ARM C          WHITE                     HISPANIC OR LATINO
ABC-14-086 3        ARM C          WHITE                     NOT HISPANIC OR LATINO
ABC-14-119 3        ARM C          WHITE                     HISPANIC OR LATINO
ABC-14-121 3        ARM C          WHITE                     NOT HISPANIC OR LATINO

Time                                                                                           Page 15 of 27
                                                Listing 1.0
                                            Demographics Dataset

USUBJID    ARMCD    ARM            STUDYID DOMAIN SUBJID RFSTDTC    RFENDTC    RFXSTDTC RFXENDTC RFICDTC
¯¯¯¯¯¯¯¯¯¯¯¯¯¯¯¯¯¯¯¯¯¯¯¯¯¯¯¯¯¯¯¯¯¯¯¯¯¯¯¯¯¯¯¯¯¯¯¯¯¯¯¯¯¯¯¯¯¯¯¯¯¯¯¯¯¯¯¯¯¯¯¯¯¯¯¯¯¯¯¯¯¯¯¯¯¯¯¯¯¯¯¯¯¯¯¯¯¯¯¯¯¯¯¯¯¯¯
ABC-15-154 3        ARM C          ABC     DM        154 1/10/2007  2/12/2007                    12/29/2006
ABC-16-045 3        ARM C          ABC     DM         45 12/28/2006                              12/19/2006
ABC-16-159 3        ARM C          ABC     DM        159 12/21/2006                              12/14/2006

































Time                                                                                           Page 16 of 27
                                                Listing 1.0
                                            Demographics Dataset

USUBJID    ARMCD    ARM            RFPENDTC   DTHDTC DTHFL SITEID BRTHDTC    AGE AGEU  SEX
¯¯¯¯¯¯¯¯¯¯¯¯¯¯¯¯¯¯¯¯¯¯¯¯¯¯¯¯¯¯¯¯¯¯¯¯¯¯¯¯¯¯¯¯¯¯¯¯¯¯¯¯¯¯¯¯¯¯¯¯¯¯¯¯¯¯¯¯¯¯¯¯¯¯¯¯¯¯¯¯¯¯¯¯¯¯¯¯¯¯
ABC-15-154 3        ARM C          2/12/2007                   15 6/5/1936    70 YEARS F
ABC-16-045 3        ARM C                                      16 8/18/1938   68 YEARS M
ABC-16-159 3        ARM C                                      16 7/19/1948   58 YEARS F

































Time                                                                                           Page 17 of 27
                                                Listing 1.0
                                            Demographics Dataset

USUBJID    ARMCD    ARM            RACE                      ETHNIC                 ACTARMCD ACTARM COUNTRY
¯¯¯¯¯¯¯¯¯¯¯¯¯¯¯¯¯¯¯¯¯¯¯¯¯¯¯¯¯¯¯¯¯¯¯¯¯¯¯¯¯¯¯¯¯¯¯¯¯¯¯¯¯¯¯¯¯¯¯¯¯¯¯¯¯¯¯¯¯¯¯¯¯¯¯¯¯¯¯¯¯¯¯¯¯¯¯¯¯¯¯¯¯¯¯¯¯¯¯¯¯¯¯¯¯¯¯
ABC-15-154 3        ARM C          WHITE                     NOT HISPANIC OR LATINO
ABC-16-045 3        ARM C          WHITE                     NOT HISPANIC OR LATINO
ABC-16-159 3        ARM C          WHITE                     NOT HISPANIC OR LATINO

































Time                                                                                           Page 18 of 27
                                                Listing 1.0
                                            Demographics Dataset

USUBJID    ARMCD    ARM            STUDYID DOMAIN SUBJID RFSTDTC    RFENDTC    RFXSTDTC RFXENDTC RFICDTC
¯¯¯¯¯¯¯¯¯¯¯¯¯¯¯¯¯¯¯¯¯¯¯¯¯¯¯¯¯¯¯¯¯¯¯¯¯¯¯¯¯¯¯¯¯¯¯¯¯¯¯¯¯¯¯¯¯¯¯¯¯¯¯¯¯¯¯¯¯¯¯¯¯¯¯¯¯¯¯¯¯¯¯¯¯¯¯¯¯¯¯¯¯¯¯¯¯¯¯¯¯¯¯¯¯¯¯
ABC-01-049 4        ARM D          ABC     DM         49 11/7/2006                               10/25/2006
ABC-01-054 4        ARM D          ABC     DM         54 11/16/2006                              11/7/2006
ABC-01-113 4        ARM D          ABC     DM        113 12/5/2006                               11/28/2006
ABC-02-036 4        ARM D          ABC     DM         36 11/1/2006                               10/23/2006
ABC-02-040 4        ARM D          ABC     DM         40 12/7/2006                               11/29/2006
ABC-02-111 4        ARM D          ABC     DM        111 12/19/2006                              12/11/2006
ABC-03-003 4        ARM D          ABC     DM          3 10/11/2006                              9/27/2006
ABC-03-008 4        ARM D          ABC     DM          8 11/2/2006  11/9/2006                    10/18/2006
ABC-03-089 4        ARM D          ABC     DM         89 11/21/2006                              11/15/2006
ABC-04-073 4        ARM D          ABC     DM         73 10/31/2006                              10/10/2006
ABC-04-078 4        ARM D          ABC     DM         78 12/13/2006                              11/21/2006
ABC-04-125 4        ARM D          ABC     DM        125 12/29/2006                              12/14/2006
ABC-04-129 4        ARM D          ABC     DM        129 1/5/2007                                12/19/2006
ABC-06-067 4        ARM D          ABC     DM         67 11/21/2006                              11/14/2006
ABC-06-071 4        ARM D          ABC     DM         71 11/29/2006                              11/15/2006
ABC-06-163 4        ARM D          ABC     DM        163 1/8/2007                                12/21/2006
ABC-07-011 4        ARM D          ABC     DM         11 11/22/2006                              11/15/2006
ABC-07-013 4        ARM D          ABC     DM         13 12/18/2006                              12/11/2006
ABC-08-102 4        ARM D          ABC     DM        102 11/9/2006                               11/1/2006
ABC-08-107 4        ARM D          ABC     DM        107 11/21/2006 1/3/2007                     11/3/2006
ABC-09-019 4        ARM D          ABC     DM         19 10/18/2006                              10/6/2006
ABC-09-022 4        ARM D          ABC     DM         22 11/16/2006                              11/13/2006
ABC-09-138 4        ARM D          ABC     DM        138 11/21/2006                              11/15/2006
ABC-10-146 4        ARM D          ABC     DM        146 12/11/2006                              11/29/2006
ABC-10-150 4        ARM D          ABC     DM        150 12/14/2006                              11/29/2006
ABC-11-096 4        ARM D          ABC     DM         96 11/27/2006                              11/15/2006
ABC-11-099 4        ARM D          ABC     DM         99 12/8/2006                               11/17/2006
ABC-12-059 4        ARM D          ABC     DM         59 11/17/2006 2/8/2007                     11/3/2006
ABC-13-028 4        ARM D          ABC     DM         28 11/7/2006                               10/30/2006
ABC-13-030 4        ARM D          ABC     DM         30 11/16/2006                              11/8/2006
ABC-13-141 4        ARM D          ABC     DM        141 11/21/2006 12/6/2006                    11/15/2006
ABC-14-082 4        ARM D          ABC     DM         82 11/13/2006                              10/30/2006
ABC-14-087 4        ARM D          ABC     DM         87 11/16/2006                              11/1/2006
ABC-14-120 4        ARM D          ABC     DM        120 11/28/2006                              10/30/2006
ABC-14-122 4        ARM D          ABC     DM        122 12/18/2006                              12/11/2006

Time                                                                                           Page 19 of 27
                                                Listing 1.0
                                            Demographics Dataset

USUBJID    ARMCD    ARM            RFPENDTC   DTHDTC DTHFL SITEID BRTHDTC    AGE AGEU  SEX
¯¯¯¯¯¯¯¯¯¯¯¯¯¯¯¯¯¯¯¯¯¯¯¯¯¯¯¯¯¯¯¯¯¯¯¯¯¯¯¯¯¯¯¯¯¯¯¯¯¯¯¯¯¯¯¯¯¯¯¯¯¯¯¯¯¯¯¯¯¯¯¯¯¯¯¯¯¯¯¯¯¯¯¯¯¯¯¯¯¯
ABC-01-049 4        ARM D                                       1 11/12/1966  39 YEARS M
ABC-01-054 4        ARM D                                       1 9/13/1962   44 YEARS M
ABC-01-113 4        ARM D                                       1 2/8/1932    74 YEARS M
ABC-02-036 4        ARM D                                       2 1/1/1971    35 YEARS M
ABC-02-040 4        ARM D                                       2 3/27/1944   62 YEARS M
ABC-02-111 4        ARM D                                       2 7/9/1967    39 YEARS M
ABC-03-003 4        ARM D                                       3 9/14/1942   64 YEARS M
ABC-03-008 4        ARM D          11/9/2006                    3 8/28/1952   54 YEARS M
ABC-03-089 4        ARM D                                       3 10/2/1975   31 YEARS F
ABC-04-073 4        ARM D                                       4 1/19/1947   59 YEARS F
ABC-04-078 4        ARM D                                       4 9/11/1953   53 YEARS F
ABC-04-125 4        ARM D                                       4 11/16/1937  69 YEARS M
ABC-04-129 4        ARM D                                       4 2/21/1960   46 YEARS M
ABC-06-067 4        ARM D                                       6 9/23/1958   48 YEARS F
ABC-06-071 4        ARM D                                       6 3/1/1931    75 YEARS F
ABC-06-163 4        ARM D                                       6 4/13/1942   64 YEARS M
ABC-07-011 4        ARM D                                       7 1/18/1985   21 YEARS M
ABC-07-013 4        ARM D                                       7 1/29/1961   45 YEARS M
ABC-08-102 4        ARM D                                       8 2/23/1952   54 YEARS F
ABC-08-107 4        ARM D          1/3/2007                     8 11/3/1952   54 YEARS M
ABC-09-019 4        ARM D                                       9 12/6/1960   45 YEARS M
ABC-09-022 4        ARM D                                       9 11/8/1968   38 YEARS F
ABC-09-138 4        ARM D                                       9 8/24/1975   31 YEARS M
ABC-10-146 4        ARM D                                      10 10/19/1977  29 YEARS M
ABC-10-150 4        ARM D                                      10 9/7/1981    25 YEARS M
ABC-11-096 4        ARM D                                      11 1/13/1953   53 YEARS M
ABC-11-099 4        ARM D                                      11 4/20/1942   64 YEARS M
ABC-12-059 4        ARM D          2/8/2007                    12 10/18/1966  40 YEARS F
ABC-13-028 4        ARM D                                      13 11/10/1958  47 YEARS M
ABC-13-030 4        ARM D                                      13 1/18/1943   63 YEARS M
ABC-13-141 4        ARM D          12/6/2006                   13 12/16/1941  64 YEARS F
ABC-14-082 4        ARM D                                      14 4/21/1940   66 YEARS M
ABC-14-087 4        ARM D                                      14 8/31/1952   54 YEARS F
ABC-14-120 4        ARM D                                      14 5/25/1936   70 YEARS M
ABC-14-122 4        ARM D                                      14 5/3/1972    34 YEARS M

Time                                                                                           Page 20 of 27
                                                Listing 1.0
                                            Demographics Dataset

USUBJID    ARMCD    ARM            RACE                      ETHNIC                 ACTARMCD ACTARM COUNTRY
¯¯¯¯¯¯¯¯¯¯¯¯¯¯¯¯¯¯¯¯¯¯¯¯¯¯¯¯¯¯¯¯¯¯¯¯¯¯¯¯¯¯¯¯¯¯¯¯¯¯¯¯¯¯¯¯¯¯¯¯¯¯¯¯¯¯¯¯¯¯¯¯¯¯¯¯¯¯¯¯¯¯¯¯¯¯¯¯¯¯¯¯¯¯¯¯¯¯¯¯¯¯¯¯¯¯¯
ABC-01-049 4        ARM D          WHITE                     NOT HISPANIC OR LATINO
ABC-01-054 4        ARM D          WHITE                     NOT HISPANIC OR LATINO
ABC-01-113 4        ARM D          WHITE                     UNKNOWN
ABC-02-036 4        ARM D          WHITE                     NOT HISPANIC OR LATINO
ABC-02-040 4        ARM D          WHITE                     NOT HISPANIC OR LATINO
ABC-02-111 4        ARM D          WHITE                     NOT HISPANIC OR LATINO
ABC-03-003 4        ARM D          WHITE                     NOT HISPANIC OR LATINO
ABC-03-008 4        ARM D          WHITE                     NOT HISPANIC OR LATINO
ABC-03-089 4        ARM D          UNKNOWN                   HISPANIC OR LATINO
ABC-04-073 4        ARM D          WHITE                     NOT HISPANIC OR LATINO
ABC-04-078 4        ARM D          WHITE                     NOT HISPANIC OR LATINO
ABC-04-125 4        ARM D          WHITE                     NOT HISPANIC OR LATINO
ABC-04-129 4        ARM D          ASIAN                     NOT HISPANIC OR LATINO
ABC-06-067 4        ARM D          WHITE                     HISPANIC OR LATINO
ABC-06-071 4        ARM D          WHITE                     NOT HISPANIC OR LATINO
ABC-06-163 4        ARM D          WHITE                     NOT HISPANIC OR LATINO
ABC-07-011 4        ARM D          WHITE                     NOT HISPANIC OR LATINO
ABC-07-013 4        ARM D          WHITE                     NOT HISPANIC OR LATINO
ABC-08-102 4        ARM D          WHITE                     NOT HISPANIC OR LATINO
ABC-08-107 4        ARM D          WHITE                     NOT HISPANIC OR LATINO
ABC-09-019 4        ARM D          WHITE                     NOT HISPANIC OR LATINO
ABC-09-022 4        ARM D          BLACK OR AFRICAN AMERICAN NOT HISPANIC OR LATINO
ABC-09-138 4        ARM D          WHITE                     NOT HISPANIC OR LATINO
ABC-10-146 4        ARM D          WHITE                     NOT HISPANIC OR LATINO
ABC-10-150 4        ARM D          WHITE                     NOT HISPANIC OR LATINO
ABC-11-096 4        ARM D          WHITE                     NOT HISPANIC OR LATINO
ABC-11-099 4        ARM D          WHITE                     NOT HISPANIC OR LATINO
ABC-12-059 4        ARM D          WHITE                     NOT HISPANIC OR LATINO
ABC-13-028 4        ARM D          WHITE                     NOT HISPANIC OR LATINO
ABC-13-030 4        ARM D          WHITE                     NOT HISPANIC OR LATINO
ABC-13-141 4        ARM D          WHITE                     NOT HISPANIC OR LATINO
ABC-14-082 4        ARM D          WHITE                     HISPANIC OR LATINO
ABC-14-087 4        ARM D          WHITE                     NOT HISPANIC OR LATINO
ABC-14-120 4        ARM D          WHITE                     NOT HISPANIC OR LATINO
ABC-14-122 4        ARM D          WHITE                     HISPANIC OR LATINO

Time                                                                                           Page 21 of 27
                                                Listing 1.0
                                            Demographics Dataset

USUBJID    ARMCD    ARM            STUDYID DOMAIN SUBJID RFSTDTC    RFENDTC    RFXSTDTC RFXENDTC RFICDTC
¯¯¯¯¯¯¯¯¯¯¯¯¯¯¯¯¯¯¯¯¯¯¯¯¯¯¯¯¯¯¯¯¯¯¯¯¯¯¯¯¯¯¯¯¯¯¯¯¯¯¯¯¯¯¯¯¯¯¯¯¯¯¯¯¯¯¯¯¯¯¯¯¯¯¯¯¯¯¯¯¯¯¯¯¯¯¯¯¯¯¯¯¯¯¯¯¯¯¯¯¯¯¯¯¯¯¯
ABC-15-153 4        ARM D          ABC     DM        153 1/4/2007   2/22/2007                    12/21/2006
ABC-16-046 4        ARM D          ABC     DM         46 12/28/2006 1/29/2007                    12/21/2006
ABC-16-160 4        ARM D          ABC     DM        160 12/28/2006                              12/19/2006

































Time                                                                                           Page 22 of 27
                                                Listing 1.0
                                            Demographics Dataset

USUBJID    ARMCD    ARM            RFPENDTC   DTHDTC DTHFL SITEID BRTHDTC    AGE AGEU  SEX
¯¯¯¯¯¯¯¯¯¯¯¯¯¯¯¯¯¯¯¯¯¯¯¯¯¯¯¯¯¯¯¯¯¯¯¯¯¯¯¯¯¯¯¯¯¯¯¯¯¯¯¯¯¯¯¯¯¯¯¯¯¯¯¯¯¯¯¯¯¯¯¯¯¯¯¯¯¯¯¯¯¯¯¯¯¯¯¯¯¯
ABC-15-153 4        ARM D          2/22/2007                   15 10/22/1941  65 YEARS F
ABC-16-046 4        ARM D          1/29/2007                   16 7/21/1935   71 YEARS F
ABC-16-160 4        ARM D                                      16 3/8/1962    44 YEARS M

































Time                                                                                           Page 23 of 27
                                                Listing 1.0
                                            Demographics Dataset

USUBJID    ARMCD    ARM            RACE                      ETHNIC                 ACTARMCD ACTARM COUNTRY
¯¯¯¯¯¯¯¯¯¯¯¯¯¯¯¯¯¯¯¯¯¯¯¯¯¯¯¯¯¯¯¯¯¯¯¯¯¯¯¯¯¯¯¯¯¯¯¯¯¯¯¯¯¯¯¯¯¯¯¯¯¯¯¯¯¯¯¯¯¯¯¯¯¯¯¯¯¯¯¯¯¯¯¯¯¯¯¯¯¯¯¯¯¯¯¯¯¯¯¯¯¯¯¯¯¯¯
ABC-15-153 4        ARM D          WHITE                     NOT HISPANIC OR LATINO
ABC-16-046 4        ARM D          WHITE                     NOT HISPANIC OR LATINO
ABC-16-160 4        ARM D          WHITE                     HISPANIC OR LATINO

































Time                                                                                           Page 24 of 27
                                                Listing 1.0
                                            Demographics Dataset

USUBJID    ARMCD    ARM            STUDYID DOMAIN SUBJID RFSTDTC    RFENDTC    RFXSTDTC RFXENDTC RFICDTC
¯¯¯¯¯¯¯¯¯¯¯¯¯¯¯¯¯¯¯¯¯¯¯¯¯¯¯¯¯¯¯¯¯¯¯¯¯¯¯¯¯¯¯¯¯¯¯¯¯¯¯¯¯¯¯¯¯¯¯¯¯¯¯¯¯¯¯¯¯¯¯¯¯¯¯¯¯¯¯¯¯¯¯¯¯¯¯¯¯¯¯¯¯¯¯¯¯¯¯¯¯¯¯¯¯¯¯
ABC-03-090 SCRNFAIL SCREEN FAILURE ABC     DM         90 12/6/2006                               11/30/2006
ABC-06-162 SCRNFAIL SCREEN FAILURE ABC     DM        162 12/28/2006                              12/14/2006


































Time                                                                                           Page 25 of 27
                                                Listing 1.0
                                            Demographics Dataset

USUBJID    ARMCD    ARM            RFPENDTC   DTHDTC DTHFL SITEID BRTHDTC    AGE AGEU  SEX
¯¯¯¯¯¯¯¯¯¯¯¯¯¯¯¯¯¯¯¯¯¯¯¯¯¯¯¯¯¯¯¯¯¯¯¯¯¯¯¯¯¯¯¯¯¯¯¯¯¯¯¯¯¯¯¯¯¯¯¯¯¯¯¯¯¯¯¯¯¯¯¯¯¯¯¯¯¯¯¯¯¯¯¯¯¯¯¯¯¯
ABC-03-090 SCRNFAIL SCREEN FAILURE                              3 6/17/1926   80 YEARS M
ABC-06-162 SCRNFAIL SCREEN FAILURE                              6 12/21/1948  58 YEARS M


































Time                                                                                           Page 26 of 27
                                                Listing 1.0
                                            Demographics Dataset

USUBJID    ARMCD    ARM            RACE                      ETHNIC                 ACTARMCD ACTARM COUNTRY
¯¯¯¯¯¯¯¯¯¯¯¯¯¯¯¯¯¯¯¯¯¯¯¯¯¯¯¯¯¯¯¯¯¯¯¯¯¯¯¯¯¯¯¯¯¯¯¯¯¯¯¯¯¯¯¯¯¯¯¯¯¯¯¯¯¯¯¯¯¯¯¯¯¯¯¯¯¯¯¯¯¯¯¯¯¯¯¯¯¯¯¯¯¯¯¯¯¯¯¯¯¯¯¯¯¯¯
ABC-03-090 SCRNFAIL SCREEN FAILURE WHITE                     NOT HISPANIC OR LATINO
ABC-06-162 SCRNFAIL SCREEN FAILURE WHITE                     NOT HISPANIC OR LATINO


































Time                                                                                           Page 27 of 27
